Folder: FP-WS2014/V6_SAXS/data/profiles

Note: V6_SAXS/data/profiles/front_SAXS_empty.txt
133.3333	20427.2852	
266.6667	20270.3750	
400.0000	20707.4082	
533.3333	20605.5410	
666.6667	20685.9102	
800.0000	20628.0234	
933.3333	20623.4121	
1066.6666	20758.0371	
1200.0000	20669.5859	
1333.3334	21038.7422	
1466.6666	20858.3086	
1600.0000	21214.3965	
1733.3334	21581.5898	
1866.6666	22586.2617	
2000.0000	23107.7734	
2133.3333	23759.7383	
2266.6667	24192.3340	
2400.0000	24580.5293	
2533.3333	24977.6641	
2666.6667	25130.5508	
2800.0000	25303.4805	
2933.3333	25504.9316	
3066.6667	25486.6445	
3200.0000	26025.3008	
3333.3333	26345.4277	
3466.6667	26611.3965	
3600.0000	27066.2969	
3733.3333	27407.1191	
3866.6667	27832.2090	
4000.0000	28346.4395	
4133.3335	28700.2988	
4266.6665	29090.5195	
4400.0000	29438.5195	
4533.3335	29554.0195	
4666.6665	29909.1309	
4800.0000	30289.5156	
4933.3335	30653.8379	
5066.6665	30840.0547	
5200.0000	31235.9180	
5333.3335	31521.9082	
5466.6665	31791.4160	
5600.0000	32030.4844	
5733.3335	32425.2949	
5866.6665	32810.7227	
6000.0000	33242.8672	
6133.3335	33818.8906	
6266.6665	34398.4023	
6400.0000	34730.7812	
6533.3335	34884.0430	
6666.6665	34953.0234	
6800.0000	35170.4805	
6933.3335	35264.8125	
7066.6665	35421.0195	
7200.0000	35593.9688	
7333.3335	35718.4883	
7466.6665	35835.0469	
7600.0000	35995.7734	
7733.3335	36092.3398	
7866.6665	36261.9062	
8000.0000	36461.7891	
8133.3335	36545.1055	
8266.6670	36665.2578	
8400.0000	36777.4844	
8533.3330	36763.1172	
8666.6670	36741.3711	
8800.0000	36760.2852	
8933.3330	36690.9062	
9066.6670	36709.5898	
9200.0000	36744.8359	
9333.3330	36733.0859	
9466.6670	36777.3945	
9600.0000	36809.4570	
9733.3330	36816.4961	
9866.6670	36869.6406	
10000.0000	36912.3203	
10133.3330	36903.0195	
10266.6670	36910.3789	
10400.0000	36916.1719	
10533.3330	36920.8711	
10666.6670	36909.4609	
10800.0000	36920.2695	
10933.3330	36964.8633	
11066.6670	36953.3320	
11200.0000	36928.6680	
11333.3330	36901.0898	
11466.6670	36878.3672	
11600.0000	36803.8477	
11733.3330	36782.1719	
11866.6670	36758.5625	
12000.0000	36681.2305	
12133.3330	36689.4102	
12266.6670	36713.4492	
12400.0000	36661.3438	
12533.3330	36720.3789	
12666.6670	36675.3320	
12800.0000	36595.5273	
12933.3330	36535.0859	
13066.6670	36398.9688	
13200.0000	36271.9062	
13333.3330	36168.9336	
13466.6670	36049.7344	
13600.0000	35902.5469	
13733.3330	35828.9922	
13866.6670	35756.4297	
14000.0000	35662.4023	
14133.3330	35622.8750	
14266.6670	35559.5742	
14400.0000	35431.7422	
14533.3330	35410.0117	
14666.6670	35371.5977	
14800.0000	35254.7734	
14933.3330	35222.5234	
15066.6670	35192.2031	
15200.0000	35079.8906	
15333.3330	35060.4180	
15466.6670	35017.8945	
15600.0000	34535.5781

Note: V6_SAXS/data/profiles/Frontscattering_empty.txt
133.3333	20757.1914	
266.6667	20748.2500	
400.0000	20647.8418	
533.3333	20712.1660	
666.6667	20530.6973	
800.0000	20989.4414	
933.3333	20940.8496	
1066.6666	21534.9004	
1200.0000	21888.2754	
1333.3334	22838.4492	
1466.6666	23665.1328	
1600.0000	24174.6406	
1733.3334	24712.4863	
1866.6666	24964.4219	
2000.0000	25251.5488	
2133.3333	25332.0391	
2266.6667	25523.3223	
2400.0000	25948.8301	
2533.3333	25973.3945	
2666.6667	25931.3281	
2800.0000	26241.4531	
2933.3333	26235.5488	
3066.6667	26320.7832	
3200.0000	26665.1426	
3333.3333	26813.5879	
3466.6667	27026.3652	
3600.0000	27301.7539	
3733.3333	27660.3359	
3866.6667	27865.3887	
4000.0000	28097.1172	
4133.3335	28478.5117	
4266.6665	28758.9316	
4400.0000	29110.8984	
4533.3335	29463.0977	
4666.6665	29776.1387	
4800.0000	30107.9609	
4933.3335	30317.2949	
5066.6665	30574.6133	
5200.0000	30919.3066	
5333.3335	31104.9531	
5466.6665	31372.7695	
5600.0000	31761.2832	
5733.3335	31967.7754	
5866.6665	32222.2090	
6000.0000	32466.9707	
6133.3335	32807.1289	
6266.6665	33204.1914	
6400.0000	33557.8164	
6533.3335	33989.3750	
6666.6665	34492.6133	
6800.0000	35037.7930	
6933.3335	35272.0430	
7066.6665	35426.2695	
7200.0000	35580.1289	
7333.3335	35708.4492	
7466.6665	35786.6133	
7600.0000	36046.9023	
7733.3335	36120.9766	
7866.6665	36226.4141	
8000.0000	36435.8594	
8133.3335	36508.7539	
8266.6670	36574.7617	
8400.0000	36693.1055	
8533.3330	36707.4336	
8666.6670	36708.0156	
8800.0000	36749.9883	
8933.3330	36721.2148	
9066.6670	36700.1094	
9200.0000	36786.4805	
9333.3330	36730.5391	
9466.6670	36773.2266	
9600.0000	36841.5352	
9733.3330	36821.3867	
9866.6670	36855.2070	
10000.0000	36913.3906	
10133.3330	36883.3477	
10266.6670	36869.0586	
10400.0000	36944.9023	
10533.3330	36900.9258	
10666.6670	36933.0234	
10800.0000	36941.0352	
10933.3330	36898.8594	
11066.6670	36896.2891	
11200.0000	36903.9492	
11333.3330	36852.1562	
11466.6670	36861.8203	
11600.0000	36809.2695	
11733.3330	36780.6875	
11866.6670	36772.3633	
12000.0000	36766.7383	
12133.3330	36710.9375	
12266.6670	36727.6367	
12400.0000	36674.3906	
12533.3330	36643.8750	
12666.6670	36568.2305	
12800.0000	36517.6211	
12933.3330	36434.9961	
13066.6670	36359.1133	
13200.0000	36252.2422	
13333.3330	36146.1719	
13466.6670	36074.2305	
13600.0000	35949.7500	
13733.3330	35846.8984	
13866.6670	35768.4766	
14000.0000	35676.6445	
14133.3330	35611.7305	
14266.6670	35560.6953	
14400.0000	35448.6328	
14533.3330	35420.9688	
14666.6670	35348.3867	
14800.0000	35281.5430	
14933.3330	35207.3164	
15066.6670	35182.5664	
15200.0000	35074.0664	
15333.3330	35059.5117	
15466.6670	35000.5273	
15600.0000	34909.5664	
15733.3330	34891.8555	
15866.6670	34855.4961	
16000.0000	34733.4609	
16133.3330	34740.0938	
16266.6670	34699.4297	
16400.0000	34628.2109	
16533.3340	34612.9453	
16666.6660	34561.8398	
16800.0000	34501.2969	
16933.3340	34483.4023	
17066.6660	34421.3242	
17200.0000	34341.7305	
17333.3340	34327.2930	
17466.6660	34312.4141	
17600.0000	34232.8828	
17733.3340	34218.5039	
17866.6660	34163.5234	

File: front_SAXS_polymer.txt
133.3333	15799.9
266.6667	15825.6
400.0000	16156.5
533.3333	16233.6
666.6667	16068.6
800.0000	16166.3
933.3333	16104.7
1066.67	16122.4
1200	16242.6
1333.33	16411
1466.67	16374.8
1600	16331.4
1733.33	16537.3
1866.67	16905.3
2000	17624.7
2133.33	18412.6
2266.67	18968.6
2400	19569.9
2533.33	20037.1
2666.67	19993.2
2800	20658.2
2933.33	20450.4
3066.67	20681
3200	20914.1
3333.33	20732.2
3466.67	20916.2
3600	21250.6
3733.33	21546.9
3866.67	21741.5
4000	22244.4
4133.33	22632
4266.67	22927.9
4400	23382.3
4533.33	23683.9
4666.67	24062.8
4800	24575.6
4933.33	24951.3
5066.67	25396.7
5200	25779.1
5333.33	26355.2
5466.67	26807.5
5600	27248.2
5733.33	27875.9
5866.67	28496.1
6000	29262.2
6133.33	29577.6
6266.67	29846.2
6400	30071.5
6533.33	30298.2
6666.67	30445.8
6800	30715.1
6933.33	30894.4
7066.67	31153.1
7200	31451.3
7333.33	31693.3
7466.67	31924.6
7600	32172.5
7733.33	32287.7
7866.67	32507.8
8000	32742.1
8133.33	32934.1
8266.67	33166.1
8400	33370
8533.33	33512.3
8666.67	33588.3
8800	33628.8
8933.33	33548.6
9066.67	33449.6
9200	33407.4
9333.33	33261.6
9466.67	33243.4
9600	33270.4
9733.33	33302.2
9866.67	33400.5
10000	33456.3
10133.3	33569.4
10266.7	33628.9
10400	33629.2
10533.3	33501.8
10666.7	33479.2
10800	33345.5
10933.3	33368.5
11066.7	33369.2
11200	33371.3
11333.3	33389.6
11466.7	33420.9
11600	33381.4
11733.3	33278.6
11866.7	33255.7
12000	33139.1
12133.3	33005.3
12266.7	32964.5
12400	32898.9
12533.3	32871.5
12666.7	32936.8
12800	32891.9
12933.3	32990.2
13066.7	33029
13200	32944.3
13333.3	32901
13466.7	32799.6
13600	32569.2
13733.3	32392.9
13866.7	32181.8
14000	31976.9
14133.3	31777.5
14266.7	31701.3
14400	31565.8
14533.3	31508.1
14666.7	31407.3
14800	31308.6
14933.3	31265.4
15066.7	31221.9
15200	31121.1
15333.3	31082.1
15466.7	31018.2
15600	30347.3

File: Frontscattering_Polymer_stretch.txt
133.3333	16351.4
666.6667	16123.9
1200	16180.2
1733.33	16970.4
2266.67	19355.8
2800	20226.7
3333.33	20940.5
3866.67	22252.2
4400	23614.4
4933.33	24826.9
5466.67	26548.7
6000	28387
6533.33	30236.3
7066.67	31188.3
7600	32114
8133.33	32913.8
8666.67	33591.7
9200	33355.5
9733.33	33331.2
10266.7	33495.9
10800	33416.2
11333.3	33391.3
11866.7	33248.3
12400	32894.9
12933.3	32965.4
13466.7	32770.2
14000	32000.4
14533.3	31493.8
15066.7	31209.1
15600	30871.5
16133.3	30643.7
16666.7	30388.2
17200	30137.5
17733.3	30054.9
18266.7	29808.5
18800	29485
19333.3	29449.9
19866.7	29408.6
20400	29325.7
20933.3	29446.8
21466.7	29502.4
22000	29539.6
22533.3	30052.9
23066.7	31150.2
23600	33179.1
24133.3	35530.8
24666.7	34950
25200	31863.4
25733.3	30692.8
26266.7	30255.8
26800	29719.6
27333.3	29589.2
27866.7	29585.4
28400	29894.7
28933.3	31719.8
29466.7	32908.8
30000	30483
30533.3	28627.1
31066.7	28116.7
31600	28176.9
32133.3	28967.3
32666.7	29215.4
33200	27813.9
33733.3	26850.7
34266.7	26513.9
34800	26267.4
35333.3	26146.4
35866.7	25880.9
36400	25838.9
36933.3	26820.8
37466.7	27574
38000	26929.3
38533.3	27221.8
39066.7	27351.2
39600	25620.1
40133.3	23893.8
40666.7	23206.9
41200	22907.8
41733.3	22637
42266.7	22530.5
42800	22378.9
43333.3	22406.2
43866.7	22393.4
44400	22145.4
44933.3	22019.2
45466.7	22126.5
46000	22214.1
46533.3	21828
47066.7	21263.1
47600	20900.3
48133.3	20815.1
48666.7	20660.2
49200	20675.6
49733.3	20644.1
50266.7	20568.5
50800	20504.9
51333.3	20542.3
51866.7	20589.9
52400	20737.1
52933.3	20817.6
53466.7	20566.9
54000	20093.2
54533.3	19600.8
55066.7	19230.2
55600	18987.4
56133.3	18778
56666.7	18574.5
57200	18438.5
57733.3	18325.7
58266.7	18079.7
58800	17715.7
59333.3	17279.5
59866.7	16856.7
60400	16387
60933.3	16212.5
61466.7	16001.3
62000	15665.4
62533.3	15411.4
63066.7	15195.4
63600	14904.4
64133.3	14496
64666.7	14047.1
65200	13577.8
65733.3	13305.1
66266.7	12983.6
66800	12594
67333.3	12255.3
67866.7	11839.8
68400	11271.2
68933.3	11015.5
69466.7	10730.8
70000	10357
70533.3	10200.7
71066.7	9926.32
71600	9673.78
72133.3	9465.64
72666.7	9318.03
73200	9051.27
73733.3	8928.15
74266.7	8696.58
74800	8521.86
75333.3	8404.3
75866.7	8264.68
76400	8109.1
76933.3	8038.56
77466.7	7914.36
78000	7762.98
78533.3	7706.93
79066.7	7541
79600	7437.58
80133.3	7336.08
80666.7	7258.82
81200	7173.08
81733.3	7100.78
82266.7	7004.8
82800	6956.2
83333.3	6875.8
83866.7	6815.23
84400	6753.86
84933.3	6695.41
85466.7	6676.42
86000	6649.92
86533.3	6625.35
87066.7	6641.16
87600	6665.48
88133.3	6668.39
88666.7	6659.19
89200	6598.01
89733.3	6503.88
90266.7	6418.26
90800	6355.43
91333.3	6198.09
91866.7	6072.75
92400	5959.61
92933.3	5880.47
93466.7	5811.61
94000	5762.12
94533.3	5684.74
95066.7	5623.71
95600	5556.85
96133.3	5478.28
96666.7	5435.63
97200	5373.68
97733.3	5320.59
98266.7	5253.62
98800	5233.86
99333.3	5179.46
99866.7	5139.51
100400	5103.55
100933	5065.69
101467	5017.36
102000	5010.55
102533	4957.89
103067	4905.29
103600	4902.34
104133	4812.38
104667	4772.82
105200	4726.71
105733	4673.76
106267	4632.3
106800	4613.33
107333	4538.57
107867	4493.9
108400	4469.23
108933	4414.91
109467	4410.75
110000	4356.06
110533	4311.17
111067	4282.83
111600	4280.34
112133	4211.09
112667	4207.6
113200	4175.54
113733	4118.56
114267	4082.1
114800	4091.88
115333	4060.09
115867	4006.78
116400	4017.18
116933	3954.31
117467	3937.29
118000	3907.26
118533	3856.28
119067	3831.66
119600	3842.6
120133	3799.69
120667	3765.21
121200	3739.16
121733	3708.72
122267	3700.86
122800	3675.65
123333	3637.19
123867	3600.39
124400	3610.06
124933	3529.96
125467	3526.83
126000	3509.12
126533	3502.07
127067	3451.68
127600	3453.44
128133	3447.34
128667	3413.8
129200	3399.03
129733	3321.14
130267	3325.2
130800	3318.72
131333	3277.88
131867	3258.93
132400	3253.31
132933	3210.67
133467	3200.13
134000	3182.9
134533	3029.84
135067	2928.18
135600	2494.9
136133	2304.01
136667	2101.03
137200	1910.85
137733	1755.74
138267	1645.85
138800	1495.18
139333	1395.94
139867	1300.52
140400	1152.26
140933	1088.79
141467	1006.18
142000	895.6934
142533	827.2467
143067	745.6042
143600	665.1376
144133	583.3797
144667	529.0965
145200	437.8214
145733	368.0159
146267	294.2147
146800	208.8001
147333	169.6617
147867	139.8908
148400	109.0480
148933	80.7782
149467	52.2134
150000	0.5959

File: Frontscattering_Si_powder.txt
133.3333	14664.4
666.6667	15032.5
1200	14828.6
1733.33	15646.2
2266.67	17454.9
2800	18215.6
3333.33	18859.8
3866.67	20078.4
4400	21318
4933.33	22362.1
5466.67	23355.9
6000	24808.1
6533.33	26351.6
7066.67	26991.8
7600	27618.4
8133.33	28176.7
8666.67	27957.6
9200	28260.3
9733.33	28472.3
10266.7	28850.2
10800	28559.9
11333.3	28318.1
11866.7	28186.9
12400	27999.2
12933.3	27602.5
13466.7	27092.7
14000	26869.3
14533.3	26829.9
15066.7	26581.9
15600	26359.9
16133.3	26624.1
16666.7	26724.2
17200	26148.8
17733.3	26004.3
18266.7	26196.2
18800	26192
19333.3	26188.6
19866.7	26234.6
20400	26174.1
20933.3	26112
21466.7	26277.8
22000	26839.1
22533.3	28181.9
23066.7	28309.3
23600	26952.8
24133.3	26261.3
24666.7	26137.3
25200	26009
25733.3	25974.6
26266.7	25884.9
26800	25882.4
27333.3	26531.2
27866.7	26775.3
28400	26439.9
28933.3	26268.9
29466.7	25904.3
30000	25173.8
30533.3	24852.3
31066.7	24392.3
31600	23834.6
32133.3	23586
32666.7	23599
33200	23203.2
33733.3	22923.4
34266.7	22678
34800	22788.6
35333.3	22909.2
35866.7	22449.3
36400	22306
36933.3	22183
37466.7	21601
38000	21191.8
38533.3	21001.1
39066.7	20921.2
39600	20698.3
40133.3	20559.6
40666.7	20316.7
41200	20167.3
41733.3	20052.1
42266.7	19958
42800	19700.1
43333.3	19499.9
43866.7	19459.1
44400	19353.3
44933.3	19074.4
45466.7	18921.2
46000	18790.2
46533.3	18737.7
47066.7	18748.8
47600	18692.5
48133.3	18738.4
48666.7	19241.9
49200	19843
49733.3	19368.5
50266.7	18818
50800	18451.8
51333.3	18242.5
51866.7	17938.8
52400	17653.4
52933.3	17467.8
53466.7	17402.6
54000	17231.1
54533.3	17231.4
55066.7	17249.7
55600	17178.1
56133.3	17045.9
56666.7	16769.7
57200	16586.1
57733.3	16450.8
58266.7	16399.5
58800	15933.2
59333.3	15727.4
59866.7	15424.6
60400	15136.7
60933.3	14677.3
61466.7	14239.3
62000	13732.6
62533.3	13477.2
63066.7	13166.7
63600	12579.5
64133.3	12121.7
64666.7	11504.7
65200	10830.5
65733.3	10330.1
66266.7	9867.41
66800	9381.14
67333.3	9090.51
67866.7	8826.14
68400	8470.7
68933.3	8327.57
69466.7	8063.55
70000	7794.5
70533.3	7609.22
71066.7	7447.12
71600	7225.03
72133.3	7026.59
72666.7	6849.43
73200	6702.65
73733.3	6645.47
74266.7	6463.02
74800	6333.25
75333.3	6219.48
75866.7	6134.29
76400	6048.59
76933.3	6007.17
77466.7	5853.72
78000	5737.24
78533.3	5734.63
79066.7	5630.22
79600	5562.09
80133.3	5521.42
80666.7	5537.76
81200	5492.21
81733.3	5472.6
82266.7	5436.44
82800	5360.49
83333.3	5331.43
83866.7	5247.53
84400	5224.42
84933.3	5155.57
85466.7	5115
86000	5044.42
86533.3	4955.34
87066.7	4860.05
87600	4766.12
88133.3	4736.13
88666.7	4681.53
89200	4642.16
89733.3	4564.71
90266.7	4518.44
90800	4543.58
91333.3	4505.55
91866.7	4457.39
92400	4358.68
92933.3	4315.32
93466.7	4280.4
94000	4210.36
94533.3	4144.27
95066.7	4103.84
95600	4071.59
96133.3	4017.46
96666.7	4097.89
97200	4079.1
97733.3	4076.11
98266.7	4125.05
98800	4130.05
99333.3	3972.14
99866.7	3860.46
100400	3808.41
100933	3743.57
101467	3656.01
102000	3651.85
102533	3611.46
103067	3545.83
103600	3546.84
104133	3462.63
104667	3428.55
105200	3415.41
105733	3403.22
106267	3351
106800	3374.98
107333	3337.5
107867	3283.39
108400	3279.44
108933	3237.38
109467	3209.9
110000	3165.55
110533	3131.68
111067	3111.36
111600	3100.22
112133	3038.08
112667	3043.1
113200	3012
113733	2973.7
114267	2964.56
114800	2960.51
115333	2935.73
115867	2911.85
116400	2904.64
116933	2852.29
117467	2827.67
118000	2836.9
118533	2776.82
119067	2774.88
119600	2795.78
120133	2751.56
120667	2734.67
121200	2737.59
121733	2710.98
122267	2689.63
122800	2675.53
123333	2630.81
123867	2626.7
124400	2586.69
124933	2527.91
125467	2534.9
126000	2507.84
126533	2517.44
127067	2504.74
127600	2512.29
128133	2500.3
128667	2463.6
129200	2476.22
129733	2439.8
130267	2435.01
130800	2436.1
131333	2437.1
131867	2439.21
132400	2480.61
132933	2547.88
133467	2622.84
134000	2715.58
134533	2647.59
135067	2565.63
135600	2498.73
136133	2392.67
136667	2243.65
137200	2054.8
137733	1880.62
138267	1665.39
138800	1469.46
139333	1350.01
139867	1217.23
140400	1120.61
140933	1059.17
141467	940.2260
142000	849.9816
142533	794.9813
143067	732.1396
143600	663.1270
144133	605.1421
144667	565.5945
145200	511.6774
145733	436.5774
146267	370.6886
146800	323.0204
147333	265.8618
147867	218.6912
148400	158.5788
148933	126.4540
149467	88.7954
150000	2.2907

File: Gunier_Polymer.txt
0	17138.2
700	17251.6
1400	16826
2100	17376.1
2800	16617.4
3500	16993.7
4200	17014.8
4900	17435.4
5600	16993.5
6300	17183.7
7000	16675.8
7700	16959.3
8400	17291.6
9100	17042.6
9800	17222.3
10500	17050.2
11200	17452
11900	18254.3
12600	17811.4
13300	17603.4
14000	18025.7
14700	18100.9
15400	18607.4
16100	19131.2
16800	19593.6
17500	21489.7
18200	17868.8
18900	17893.6
19600	18379
20300	19232.7
21000	20055.9
21700	21089.6
22400	22720.8
23100	29115.6
23800	30510.1
24500	25203.2
25200	29026.9
25900	19103.5
26600	17844.5
27300	17723.5
28000	17987.6
28700	17473.4
29400	17841.3
30100	17450.6
30800	17220.5
31500	16916.6
32200	17240.6
32900	16834.6
33600	16430.9
34300	16738.4
35000	16544.6
35700	15619
36400	15742.2
37100	15616.2
37800	15090.4
38500	14999.8
39200	15083.7
39900	15507
40600	16828.9
41300	16094.2
42000	16576.4
42700	17011
43400	18428.9
44100	16826
44800	16231.1
45500	16772.1
46200	16295.1
46900	15900.4
47600	16134.1
48300	15547.3
49000	16323.5
49700	16062.7
50400	15954.4
51100	16477.2
51800	16795.3
52500	16764.5
53200	17073.7
53900	17519.2
54600	18091.6
55300	18230
56000	18310
56700	18673.2
57400	19386.9
58100	19506.4
58800	20583.9
59500	23551.6
60200	30292.1
60900	25674.4
61600	20024.8
62300	22101.1
63000	23446.6
63700	20464.4
64400	24794.1
65100	20391
65800	17532.5
66500	18462.5
67200	19107.9
67900	16607.5
68600	15263.1
69300	16522.6
70000	15943.1
70700	15341.6
71400	15787.9
72100	15189.7
72800	15078.6
73500	15993.8
74200	15675.8
74900	16877.5
75600	16063.9
76300	15772
77000	15752.9
77700	15435.1
78400	15252.8
79100	15394.2
79800	15369.4
80500	15327
81200	15051.3
81900	15417.1
82600	15503
83300	15325.8
84000	15400
84700	15865
85400	17879.5
86100	18088.6
86800	15667.1
87500	15522.1
88200	16192.3
88900	16539.7
89600	16634.7
90300	16251.3
91000	16508.3
91700	18555.1
92400	16743.3
93100	16811.4
93800	17771.2
94500	17228.6
95200	17932.4
95900	16666.9
96600	16906
97300	18101.6
98000	17142.8
98700	17288.9
99400	16532.1
100100	16215.8
100800	16833.2
101500	15512.2
102200	16034.7
102900	15397.1
103600	15964.4
104300	16681.2
105000	16041.6
105700	15879.4
106400	15324.3
107100	15799.2
107800	16305.7
108500	16230.9
109200	15174.4
109900	15588.6
110600	15213.9
111300	15210.6
112000	15597.4
112700	15996.4
113400	16700.2
114100	16893.9
114800	17216.6
115500	15449.5
116200	15233.7
116900	16159.4
117600	17288.1
118300	16927.8
119000	16322.7
119700	15940.6
120400	15913.4
121100	16083.1
121800	16267.2
122500	16474.6
123200	15916.9
123900	15871.4
124600	15540.3
125300	14950.9
126000	15430.2
126700	15274.7
127400	15673.9
128100	15733
128800	15784.8
129500	15705.5
130200	16009.5
130900	15236.2
131600	15737.5
132300	15806.6
133000	15677.1
133700	16043
134400	16271.5
135100	15961.2
135800	15399.1
136500	15793.6
137200	15180.1
137900	15448.3
138600	15060.2
139300	15665
140000	16171.3
140700	15351.9
141400	15811.2
142100	16100.9
142800	15726.1
143500	15428.7
144200	15643.4
144900	16042.8
145600	15737.3
146300	16008.1
147000	15250.2
147700	16129.4
148400	15813.9
149100	15804.4
149800	15832.2
150500	16496.1
151200	16541.9
151900	15763.7
152600	15386.3
153300	15922
154000	15829.1
154700	15958.6
155400	16172.3
156100	16062.8
156800	16496.2
157500	16603.8
158200	16486.5
158900	16116.9
159600	16271.7
160300	15704.4
161000	15738.3
161700	16392.3
162400	15680
163100	15704.5
163800	15782
164500	15787.7
165200	15725.4
165900	15624.9
166600	15781.1
167300	15842.1
168000	15817.3
168700	15862.1
169400	15864.3
170100	15869.5
170800	15881.8
171500	16307.5
172200	16094.2
172900	15710.5
173600	15938.2
174300	16314.7
175000	16536.7
175700	16228
176400	16091.3
177100	16504.7
177800	15716.9
178500	16573.1
179200	16245.4
179900	16194
180600	15729.2
181300	16285.5
182000	15941.7
182700	16275.4
183400	16146.9
184100	15496.7
184200	15054.9

File: Gunier_Silicon_pouder.txt
0	793.2373
700	713.7627
1400	2076.1
2100	2681.71
2800	1974.54
3500	2523.36
4200	3594.59
4900	3820.86
5600	3165.49
6300	3978.15
7000	3912.54
7700	3410.81
8400	3177.03
9100	4101.51
9800	4019.07
10500	3817.32
11200	3811.66
11900	2261.14
12600	4253.66
13300	3861.25
14000	3119.58
14700	3249.8
15400	3156.14
16100	5063.58
16800	4021.12
17500	4071.39
18200	3926.05
18900	5295.88
19600	4961.1
20300	4659.83
21000	4319.56
21700	5629.02
22400	5130.07
23100	6875.07
23800	12267.1
24500	12987.2
25200	24176.7
25900	7862.71
26600	6120.9
27300	5197.88
28000	5886.66
28700	6428.14
29400	7785.17
30100	11626.3
30800	22028.5
31500	37026.5
32200	24230.3
32900	30167.8
33600	18528
34300	15395.4
35000	13039.2
35700	9512.17
36400	7380.59
37100	5364.73
37800	3910.78
38500	3889.58
39200	4260.2
39900	3447.19
40600	4350.85
41300	2689.56
42000	3340.31
42700	3515.97
43400	2856.39
44100	2558.34
44800	2733.22
45500	1988.34
46200	2319.76
46900	3547.25
47600	4945.63
48300	6389.71
49000	6740.12
49700	7766.03
50400	7359.36
51100	5728.98
51800	5552.88
52500	6216.64
53200	6324.39
53900	6555.31
54600	8309.14
55300	10448.6
56000	9109.1
56700	7836.07
57400	8053.42
58100	7039.2
58800	7267.75
59500	7012
60200	9308.83
60900	7149.46
61600	8023.27
62300	7618.46
63000	8896.68
63700	6994.03
64400	7470.83
65100	8134.07
65800	6577.86
66500	7567.05
67200	9172.56
67900	8831.54
68600	8480.58
69300	8287.53
70000	6544.29
70700	6799.54
71400	7248.29
72100	7198.61
72800	5070.83
73500	6418.98
74200	6665.39
74900	5860.41
75600	5633.85
76300	6357.22
77000	5943.42
77700	6162.36
78400	5413.34
79100	7355.54
79800	13159.9
80500	15919
81200	7999.41
81900	5828.22
82600	6182.95
83300	11171.4
84000	6297.07
84700	5314.51
85400	4988
86100	5382.2
86800	5075.53
87500	5207.15
88200	5508.34
88900	5103.25
89600	4812.2
90300	5100.75
91000	4874.25
91700	4229.97
92400	5021.75
93100	5258.22
93800	5604.85
94500	5175.09
95200	5814.91
95900	5765.68
96600	4717.76
97300	5010.39
98000	4444.86
98700	5142.2
99400	5993.14
100100	5012.53
100800	4809.58
101500	5413.05
102200	5633.56
102900	5614.85
103600	5665.47
104300	5961.12
105000	7109.05
105700	6592.91
106400	7114.68
107100	5952.32
107800	5626.88
108500	5755.83
109200	5178.69
109900	5571.25
110600	6082.07
111300	4897.66
112000	5780.34
112700	16463.1
113400	9421.61
114100	7115.32
114800	5608.9
115500	5973.54
116200	5531.29
116900	8203.8
117600	6501.98
118300	4321.73
119000	4607.03
119700	4332.07
120400	4681.36
121100	4594.81
121800	4454.36
122500	5103.15
123200	5510.54
123900	4507.05
124600	4063.22
125300	5678.58
126000	4648.17
126700	4855.63
127400	6177.03
128100	15123.4
128800	7562.47
129500	5539.29
130200	4937.17
130900	4784.39
131600	4377.1
132300	4766.56
133000	5564.39
133700	4431.76
134400	4661.46
135100	4959.56
135800	5493.88
136500	6323.36
137200	5870.98
137900	4758.37
138600	4984.15
139300	4854.97
140000	5132.24
140700	5779.78
141400	4689.12
142100	4676.02
142800	5683.8
143500	5839.91
144200	4799.76
144900	4252.09
145600	5258.69
146300	5158.44
147000	4351.22
147700	5190.47
148400	5498.85
149100	5783.1
149800	4558.68
150500	8885.59
151200	5891.22
151900	4964.32
152600	4151.71
153300	4309.69
154000	5604.71
154700	5710.81
155400	5150.78
156100	6208.63
156800	4486.05
157500	4776.32
158200	5194.75
158900	5687.93
159600	5006.93
160300	4857.22
161000	4063.83
161700	5622.49
162400	7689.07
163100	11081.1
163800	6508.15
164500	5321.27
165200	5341.88
165900	5336.19
166600	5985.9
167300	4654.24
168000	5914.03
168700	6108.12
169400	6219.19
170100	5541.39
170800	5136.81
171500	5871.86
172200	5776.61
172900	5509.47
173600	5302.07
174300	5861.54
175000	4499.75
175700	5212.59
176400	4949.32
177100	5196.51
177800	4931.12
178500	5348.12
179200	5613.63
179900	5524.15
180600	5633
181300	5068.03
182000	8747.22
182700	11756.3
183400	7978.81
184100	6502.03
184800	5431.54
185500	6343.68
186200	5987.1
186900	6579.64
187600	5417.12
188300	5195.86
189000	6269.98
189700	6685.36
190400	6785.07
191100	6005.17
191800	5703.32
192500	4351.27
193200	3275.37
193900	3081.83
194600	3038.25
195300	2937.95
196000	3673.92
196700	3610.73
197400	2974.92
198100	2875.92
198800	3230.15
199500	2659.92
200200	2392.22
200900	3246.59
201600	3231.66
202300	2151.07
203000	1263.88
203700	977.3220
203900	1372.15